Folder: SeniorLab/XRF_XRD/data

Note: README.md
# SeniorLab

Note: all of the macros in this repository were written in Root 5.34 and may not function properly in other versions.

File: Diffraction_KCl_101916.txt
5	2.5	49	38	30	10
7.5	3.75	49	36	33	10
10	5	71	67	88	10
12.5	6.25	664	721	678	10
15	7.5	932	935	907	10
17.5	8.75	888	827	875	10
20	10	685	679	708	10
21	10.5	648	611	636	10
22	11	568	591	551	10
22.5	11.25	569	591	594	10
23	11.5	617	603	639	10
23.5	11.75	701	678	673	10
24	12	932	942	995	10
24.5	12.25	1356	1287	1348	10
25	12.5	1371	1320	1381	10
25.5	12.75	1224	1280	1211	10
26	13	1177	1213	1194	10
26.5	13.25	2262	2277	2260	10
27	13.5	3098	3180	3200	10
27.5	13.75	4341	4424	4299	10
28	14	3287	3366	3384	10
28.5	14.25	1945	1903	1946	10
29	14.5	981	1020	1041	10
29.5	14.75	809	773	725	10
30	15	411	439	428	10
32.5	16.25	228	249	248	10
35	17.5	217	194	215	10
37.5	18.75	179	200	213	10
40	20	177	193	196	10
42.5	21.25	160	175	185	10
45	22.5	162	168	159	10
47.5	23.75	144	150	142	10
50	25	178	151	164	10
50.5	25.25	208	195	195	10
51	25.5	232	232	262	10
51.5	25.75	318	310	327	10
52	26	292	297	313	10
52.5	26.25	247	261	236	10
53	26.5	185	173	182	10
53.5	26.75	174	158	191	10
54	27	143	167	155	10
54.5	27.25	172	143	154	10
55	27.5	141	153	151	10
55.5	27.75	217	179	171	10
56	28	208	191	223	10
56.5	28.25	271	279	259	10
57	28.5	439	442	423	10
57.5	28.75	672	655	666	10
58	29	848	876	882	10
58.5	29.25	618	592	588	10
59	29.5	346	266	284	10
59.5	29.75	225	215	237	10
60	30	153	175	154	10
62.5	31.25	112	106	106	10
65	32.5	118	104	105	10
67.5	33.75	106	117	103	10
70	35	107	120	118	10
72.5	36.25	97	104	105	10
75	37.5	105	97	116	10
77.5	38.75	117	113	108	10
80	40	92	97	119	10
80.5	40.25	91	107	111	10
81	40.5	134	121	137	10
81.5	40.75	146	143	105	10
82	41	152	151	165	10
82.5	41.25	154	132	161	10
83	41.5	104	136	140	10
83.5	41.75	108	104	132	10
84	42	109	140	96	10
84.5	42.25	105	107	128	10
85	42.5	82	86	129	10
85.5	42.75	119	95	115	10
86	43	109	115	99	10
86.5	43.25	99	93	83	10
87	43.5	96	86	91	10
90	45	99	120	118	10
90.5	45.25	92	100	108	10
91	45.5	117	115	113	10
91.5	45.75	109	124	126	10
92	46	146	131	127	10
92.5	46.25	140	155	132	10
93	46.5	246	209	188	10
93.5	46.75	300	294	308	10
94	47	253	260	278	10
94.5	47.25	168	175	177	10
95	47.5	123	136	148	10
95.5	47.75	99	117	132	10
96	48	99	99	120	10
96.5	48.25	108	105	84	10
97	48.5	108	108	110	10
97.5	48.75	108	95	122	10
100	50	95	107	111	10
102.5	51.25	91	114	110	10
105	52.5	105	129	114	10
107.5	53.75	110	94	113	10
110	55	126	142	121	10

File: Diffraction_LiF_101716.txt
3	1.5	203	222	218	10
5	2.5	45	33	52	10
10	5	26	30	33	10
12.5	6.25	33	29	37	10
15	7.5	48	40	31	10
17.5	8.75	150	123	141	10
20	10	747	731	693	10
22.5	11.25	984	1029	1012	10
25	12.5	1167	1172	1237	10
27.5	13.75	1114	1125	1114	10
30	15	1135	1078	1123	10
32.5	16.25	1066	1115	1095	10
35	17.5	953	937	940	10
37	18.5	816	814	868	10
37.5	18.75	866	897	957	10
38	19	905	935	878	10
38.5	19.25	1052	1014	1015	10
39	19.5	1948	1964	1914	10
39.5	19.75	2650	2645	2703	10
40	20	2922	2934	2875	10
40.5	20.25	2931	2959	2963	10
41	20.5	1993	1897	1945	10
41.5	20.75	1156	1210	1229	10
42	21	1057	1055	986	10
42.5	21.25	1260	1238	1242	10
42.5	21.25	1260	1245	1275	10
43	21.5	1834	1900	1937	10
43.5	21.75	3173	3075	3129	10
44	22	7596	7667	7652	10
44.5	22.25	8645	8572	8539	10
45	22.5	9123	8959	9101	10
45	22.5	8964	8871	8951	10
45.5	22.75	6601	6706	6654	10
46	23	2173	2170	2274	10
46.5	23.25	654	641	634	10
47	23.5	438	424	464	10
47.5	23.75	423	450	461	10
50	25	344	317	336	10
52.5	26.25	260	269	275	10
55	27.5	200	215	206	10
57.5	28.75	195	195	164	10
60	30	172	162	155	10
62.5	31.25	157	168	175	10
65	32.5	148	130	123	10
67.5	33.75	141	136	135	10
70	35	124	147	130	10
72.5	36.25	116	125	123	10
75	37.5	115	132	123	10
77.5	38.75	118	131	137	10
80	40	120	109	126	10
82.5	41.25	111	109	108	10
83	41.5	103	117	128	10
83.5	41.75	117	115	117	10
84	42	103	104	107	10
84.5	42.25	102	106	115	10
85	42.5	157	126	149	10
85	42.5	132	123	121	10
85.5	42.75	168	155	146	10
86	43	218	205	215	10
86.5	43.25	283	302	309	10
87	43.5	340	305	320	10
87.5	43.75	338	326	326	10
87.5	43.75	339	287	310	10
88	44	165	166	166	10
88.5	44.25	126	106	100	10
90	45	121	115	124	10
92.5	46.25	129	117	117	10
95	47.5	102	105	106	10
95.5	47.75	115	102	107	10
96	48	113	104	102	10
96.5	48.25	108	121	134	10
97	48.5	138	123	143	10
97.5	48.75	223	221	211	10
97.5	48.75	182	206	161	10
98	49	373	333	340	10
98.5	49.25	683	681	681	10
99	49.5	1029	1070	1028	10
99.5	49.75	1128	1250	1250	10
100	50	849	789	882	10
100	50	761	832	775	10
100.5	50.25	257	256	277	10
101	50.5	130	128	139	10
101.5	50.75	109	105	94	10
102	51	78	92	101	10
102.5	51.25	105	105	102	10
105	52.5	102	105	106	10
107.5	53.75	111	91	111	10
110	55	133	134	138	10
112.5	56.25	147	140	153	10
115	57.5	175	168	179	10
117.5	58.75	203	195	201	10
120	60	225	241	222	10
122.5	61.25	246	240	240	10
125	62.5	258	260	257	10

File: Diffraction_NaCl_101916.txt
5	2.5	78	80	83	10
7.5	3.75	25	20	18	10
10	5	22	25	33	10
12.5	6.25	313	322	334	10
15	7.5	1068	969	1035	10
17.5	8.75	1185	1090	1212	10
20	10	994	1074	1074	10
22.5	11.25	860	915	829	10
25	12.5	633	673	676	10
25.5	12.75	664	641	612	10
26	13	592	589	580	10
26.5	13.25	646	683	680	10
27	13.5	1384	1354	1416	10
27.5	13.75	2214	2231	2244	10
28	14	2013	1950	1958	10
28.5	14.25	1116	1121	1155	10
29	14.5	796	710	797	10
29.5	14.75	754	815	737	10
30	15	3164	3240	3289	10
30.5	15.25	6253	6318	6323	10
31	15.5	6261	6133	6301	10
31.5	15.75	3181	3217	3061	10
32	16	1554	1675	1606	10
32.5	16.25	994	992	978	10
33	16.5	773	677	710	10
33.5	16.75	559	597	634	10
34	17	434	457	386	10
34.5	17.25	369	347	323	10
35	17.5	305	296	281	10
37.5	18.75	232	226	233	10
40	20	221	209	185	10
42.5	21.25	192	185	197	10
45	22.5	161	159	185	10
47.5	23.75	175	159	174	10
50	25	168	152	169	10
52.5	26.25	118	168	148	10
55	27.5	126	133	132	10
56	28	136	116	124	10
57	28.5	155	135	149	10
57.5	28.75	269	270	249	10
58	29	471	446	417	10
58.5	29.25	374	359	359	10
59	29.5	180	188	186	10
59.5	29.75	160	139	179	10
60	30	144	147	145	10
60.5	30.25	145	141	135	10
61	30.5	113	147	119	10
61.5	30.75	116	135	130	10
62	31	129	120	117	10
62.5	31.25	116	107	109	10
63	31.5	104	127	122	10
63.5	31.75	127	133	118	10
64	32	169	147	151	10
64.5	32.25	558	573	564	10
65	32.5	1247	1357	1310	10
65.5	32.75	1173	1191	1205	10
66	33	558	552	574	10
66.5	33.25	281	297	304	10
67	33.5	197	219	226	10
67.5	33.75	168	181	174	10
68	34	129	166	136	10
68.5	34.25	133	119	123	10
70	35	114	109	100	10
72.5	36.25	120	118	101	10
75	37.5	105	122	83	10
77.5	38.75	102	92	88	10
80	40	94	69	100	10
82.5	41.25	97	96	108	10
85	42.5	83	88	91	10
87.5	43.75	96	93	83	10
90	45	84	110	102	10
91	45.5	76	90	100	10
92	46	104	91	104	10
92.5	46.25	97	82	84	10
93	46.5	94	106	83	10
93.5	46.75	115	117	122	10
94	47	169	151	151	10
94.5	47.25	183	153	184	10
95	47.5	130	112	133	10
95.5	47.75	90	95	99	10
97.5	48.75	86	104	86	10
100	50	98	98	100	10
102.5	51.25	96	78	88	10
105	52.5	78	111	99	10
106	53	96	102	93	10
107	53.5	120	91	100	10
108	54	205	218	229	10
108.5	54.25	419	423	435	10
109	54.5	498	503	498	10
109.5	54.75	371	353	344	10
110	55	205	201	157	10
110.5	55.25	144	130	142	10
111	55.5	148	124	124	10
112.5	56.25	118	100	103	10
115	57.5	100	109	105	10
120	60	122	113	114	10
125	62.5	118	130	118	10